"STUDYID","DOMAIN","USUBJID","SUBJID","RFSTDTC","RFENDTC","RFXSTDTC","RFXENDTC","RFICDTC","RFPENDTC","DTHDTC","DTHFL","SITEID","INVID","INVNAM","BRTHDTC","AGE","AGEU","SEX","RACE","ETHNIC","ARMCD","ARM","ACTARMCD","ACTARM","COUNTRY","DMDTC","DMDY","RACE1","RACE2","RACE3"
"test_study","DM","test_study-375","test_study-375","1999-04-14T08:36","2013-01-21","2023-04-14T08:36","2021-01-11T07:50","2007-01-15","2020-04-02","2020-04-02","Y","111111","90009","Dr doctor9",NA,NA,NA,"F","MULTIPLE",NA,NA,NA,NA,NA,"US",NA,NA,"NATIVE HAWAIIAN OR OTHER PACIFIC ISLANDER","WHITE",NA
"test_study","DM","test_study-376","test_study-376","2001-03-21","2007-05-21","2020-03-21","2017-09-14T18:49",NA,"2011-12-18","2011-12-18",NA,"111111","90009","Dr doctor9","1981-02-26T18:07",42,"YEARS","M","MULTIPLE","NOT HISPANIC OR LATINO",NA,NA,NA,NA,"US",NA,NA,"BLACK OR AFRICAN AMERICAN","AMERICAN INDIAN OR ALASKA NATIVE","UNKNOWN"
"test_study","DM","test_study-377","test_study-377","1999-03-14","2021-05-05","2020-03-14","2013-08-23T12:37","2015-10-07","2021-05-05","2019-06-29",NA,"111111","90009","Dr doctor9","1968-03-19T04:36",56,"YEARS",NA,"MULTIPLE","NOT REPORTED",NA,NA,NA,NA,"US",NA,NA,"ASIAN","AMERICAN INDIAN OR ALASKA NATIVE","UNKNOWN"
"test_study","DM","test_study-378","test_study-378","2003-02-06T06:33","2021-04-24T09:06","2021-02-06T06:33","2021-04-24T09:06","2018-10-20","2017-04-11","2017-04-11",NA,"111111","90009","Dr doctor9","1979-09-24",45,"YEARS","M","BLACK OR AFRICAN AMERICAN","HISPANIC OR LATINO",NA,NA,NA,NA,"US",NA,NA,NA,NA,NA
"test_study","DM","test_study-379","test_study-379","2003-02-06T06:33","2021-04-24T09:06","2022-02-06T06:33","2021-04-24T09:06","2018-10-20","2017-04-11","2017-04-11","Y","111111","90009","Dr doctor9","1963-09-24",61,"YEARS","M","BLACK OR AFRICAN AMERICAN","HISPANIC OR LATINO",NA,NA,NA,NA,"US",NA,NA,NA,NA,NA
