"STUDYID","DOMAIN","USUBJID","SUBJID","RFSTDTC","RFENDTC","RFXSTDTC","RFXENDTC","RFICDTC","RFPENDTC","DTHDTC","DTHFL","SITEID","INVID","INVNAM","BRTHDTC","AGE","AGEU","SEX","RACE","ETHNIC","ARMCD","ARM","COUNTRY","DMDTC","DMDY","RACE1","RACE2","RACESP1","RACESP2"
"GA41070","DM","GA41070-375","GA41070-375","2020-09-28T10:10","2020-10-22","2020-09-28T10:10","2020-10-22T11:00","2002-09-01","2020-10-22",NA,NA,"111111","90001","Dr doctor1","1965-01-21T05:56",NA,"YEARS","F","MULTIPLE","NOT HISPANIC OR LATINO","50","optional: insert name of study drug50 UNIT","US","2002-09-01",-6602,"AMERICAN INDIAN OR ALASKA NATIVE","NATIVE HAWAIIAN OR OTHER PACIFIC ISLANDER","ASIAN INDIAN","SAMOAN"
"GA41070","DM","GA41070-376","GA41070-376","2020-09-21T11:00","2020-10-19","2020-09-21T11:00","2020-10-21T10:00","2020-09-20","2020-10-19",NA,NA,"111111","90001","Dr doctor1","1998-08-10T19:05",NA,"YEARS","M","WHITE","NOT REPORTED","10","optional: insert name of study drug10 MG","US","2020-09-20",-1,NA,NA,NA,NA
"GA41070","DM","GA41070-377","GA41070-377",NA,"2020-10-22",NA,NA,"2020-08-25","2020-10-22",NA,NA,"111111","90001","Dr doctor1","1996-05-02T08:12",NA,"YEARS","F","MULTIPLE","UNKNOWN","10","optional: insert name of study drug10 MG","US","2020-08-31",NA,"BLACK OR AFRICAN AMERICAN","AMERICAN INDIAN OR ALASKA NATIVE",NA,NA
"GA41070","DM","GA41070-378","GA41070-378","2020-01-20T10:00","2020-02-02","2020-01-20T10:00","2020-01-20T11:00","2020-01-20","2020-02-02","2020-02-01","Y","111111","90001","Dr doctor1","2020-01-20T10:00","33","YEARS","M","AMERICAN INDIAN OR ALASKA NATIVE","HISPANIC OR LATINO","2","optional: insert name of study drug2 MG","US","2020-01-20",1,NA,NA,NA,NA
"GA41070","DM","GA41070-379","GA41070-379",NA,"2020-10-20",NA,NA,"2020-01-20","2020-10-20",NA,NA,"111111","90001","Dr doctor1","1980-01-20T10:00","30","YEARS","F","AMERICAN INDIAN OR ALASKA NATIVE","HISPANIC OR LATINO","2","optional: insert name of study drug2 MG","US","2020-01-20",NA,NA,NA,NA,NA
"GA41070","DM","GA41070-380","GA41070-380",NA,NA,NA,NA,NA,NA,NA,NA,"111111","90001","Dr doctor1","1980-01-20T10:00","40","YEARS","M","ASIAN","NOT HISPANIC OR LATINO",NA,NA,"US","2020-01-20",NA,NA,NA,"OTHER ASIAN","OTHER PACIFIC ISLANDER"
"GA41070","DM","GA41070-381","GA41070-381",NA,NA,NA,NA,NA,NA,NA,NA,"111111","90001","Dr doctor1",NA,NA,NA,NA,NA,NA,NA,NA,"US",NA,NA,NA,NA,NA,NA
"GA41070","DM","GA41070-382","GA41070-382",NA,NA,NA,NA,NA,NA,NA,NA,"111111","90001","Dr doctor1","1990-01-20T11:00","30","YEARS","F","UNKNOWN","NOT HISPANIC OR LATINO",NA,NA,"US","2020-03-20",NA,NA,NA,NA,NA
